  
           K I N E M A
        ==================
  
  TARGET  (e.g. 59CO27) : 
                              2H1   
  PROJECTILE            : 
                              1H1   
  EJECTILE 1 (3)        : 
                              2H1   
  EJECTILE 2 (4)        : 
                              1H1   
  BEAM ENERGY [MeV]     : 
                                200.00000
  ANGLE MIN.            : 
                               15.00000
  ANGLE MAX.            : 
                               80.00000
  ANGLE STEP            : 
                                1.00000
  EXCIT. ENERGY [MeV]   : 
                                0.00000


 TH_LAB  TH_CM   EN_3     G_3     V_3  PS_LAB  PS_CM   EN_4     G_4     V_4 
  
  [deg]  [deg]   [MeV]    [1]   [ns/m]  [deg]  [deg]   [MeV]    [1]    [ns/m]
  

  15.00  30.68  167.17    4.023    8.42 123.23 149.32   32.83    0.410   12.94
  16.00  32.72  165.48    4.000    8.46 120.24 147.28   34.52    0.434   12.64
  17.00  34.76  163.71    3.976    8.50 117.35 145.24   36.29    0.460   12.34
  18.00  36.80  161.84    3.950    8.54 114.55 143.20   38.16    0.487   12.05
  19.00  38.83  159.88    3.923    8.59 111.84 141.17   40.12    0.515   11.77
  20.00  40.87  157.83    3.895    8.64 109.21 139.13   42.17    0.545   11.50
  21.00  42.90  155.70    3.865    8.69 106.66 137.10   44.30    0.575   11.24
  22.00  44.94  153.49    3.835    8.74 104.18 135.06   46.51    0.607   10.99
  23.00  46.97  151.19    3.803    8.80 101.77 133.03   48.81    0.640   10.74
  24.00  49.00  148.83    3.769    8.86  99.43 131.00   51.17    0.673   10.51
  25.00  51.03  146.39    3.735    8.93  97.15 128.97   53.61    0.707   10.29
  26.00  53.06  143.88    3.699    9.00  94.93 126.94   56.12    0.742   10.07
  27.00  55.09  141.30    3.662    9.07  92.77 124.91   58.70    0.778    9.87
  28.00  57.12  138.66    3.624    9.15  90.65 122.88   61.34    0.815    9.67
  29.00  59.14  135.96    3.585    9.23  88.59 120.86   64.04    0.852    9.49
  30.00  61.17  133.21    3.545    9.32  86.57 118.83   66.79    0.889    9.31
  31.00  63.19  130.41    3.503    9.41  84.59 116.81   69.59    0.927    9.14
  32.00  65.21  127.55    3.461    9.50  82.66 114.79   72.45    0.965    8.97
  33.00  67.23  124.65    3.418    9.60  80.76 112.77   75.35    1.004    8.82
  34.00  69.25  121.71    3.373    9.70  78.90 110.75   78.29    1.042    8.67
  35.00  71.26  118.74    3.328    9.81  77.07 108.74   81.26    1.081    8.53
  36.00  73.28  115.73    3.282    9.93  75.28 106.72   84.27    1.121    8.39
  37.00  75.29  112.69    3.234   10.05  73.51 104.71   87.31    1.160    8.26
  38.00  77.30  109.62    3.186   10.18  71.78 102.70   90.38    1.199    8.14
  39.00  79.31  106.54    3.137   10.31  70.07 100.69   93.46    1.238    8.02
  40.00  81.32  103.43    3.088   10.46  68.38  98.68   96.57    1.277    7.91
  41.00  83.33  100.31    3.037   10.61  66.72  96.67   99.69    1.316    7.80
  42.00  85.33   97.18    2.986   10.76  65.09  94.67  102.82    1.355    7.70
  43.00  87.34   94.04    2.933   10.93  63.47  92.66  105.96    1.394    7.60
  44.00  89.34   90.91    2.880   11.10  61.88  90.66  109.09    1.432    7.51
  45.00  91.34   87.77    2.827   11.28  60.31  88.66  112.23    1.471    7.42
  46.00  93.34   84.64    2.773   11.48  58.75  86.66  115.36    1.509    7.33
  47.00  95.34   81.51    2.718   11.68  57.21  84.66  118.49    1.546    7.25
  48.00  97.33   78.40    2.662   11.90  55.69  82.67  121.60    1.583    7.17
  49.00  99.33   75.31    2.606   12.12  54.19  80.67  124.69    1.620    7.10
  50.00 101.32   72.23    2.549   12.36  52.70  78.68  127.77    1.656    7.03
  51.00 103.31   69.18    2.492   12.62  51.22  76.69  130.82    1.692    6.96
  52.00 105.30   66.16    2.434   12.89  49.76  74.70  133.84    1.728    6.90
  53.00 107.28   63.17    2.375   13.18  48.31  72.72  136.83    1.762    6.83
  54.00 109.27   60.21    2.316   13.48  46.88  70.73  139.79    1.797    6.77
  55.00 111.25   57.29    2.257   13.80  45.46  68.75  142.71    1.830    6.72
  56.00 113.24   54.41    2.197   14.15  44.04  66.76  145.59    1.863    6.66
  57.00 115.22   51.58    2.137   14.52  42.64  64.78  148.42    1.896    6.61
  58.00 117.20   48.79    2.076   14.91  41.25  62.80  151.21    1.927    6.56
  59.00 119.18   46.06    2.015   15.33  39.87  60.82  153.94    1.958    6.52
  60.00 121.15   43.38    1.953   15.78  38.50  58.85  156.62    1.989    6.47
  61.00 123.13   40.75    1.891   16.26  37.14  56.87  159.25    2.018    6.43
  62.00 125.10   38.19    1.829   16.78  35.79  54.90  161.81    2.047    6.39
  63.00 127.08   35.69    1.766   17.34  34.44  52.92  164.31    2.075    6.35
  64.00 129.05   33.25    1.703   17.95  33.11  50.95  166.75    2.102    6.32
  65.00 131.02   30.89    1.640   18.61  31.78  48.98  169.11    2.128    6.28
  66.00 132.99   28.59    1.576   19.32  30.45  47.01  171.41    2.153    6.25
  67.00 134.96   26.37    1.513   20.10  29.14  45.04  173.63    2.178    6.22
  68.00 136.92   24.23    1.448   20.96  27.83  43.08  175.77    2.202    6.19
  69.00 138.89   22.16    1.384   21.90  26.52  41.11  177.84    2.224    6.16
  70.00 140.85   20.17    1.320   22.93  25.23  39.15  179.83    2.246    6.13
  71.00 142.82   18.27    1.255   24.08  23.93  37.18  181.73    2.267    6.11
  72.00 144.78   16.45    1.190   25.35  22.64  35.22  183.55    2.287    6.09
  73.00 146.74   14.72    1.125   26.78  21.36  33.26  185.28    2.305    6.06
  74.00 148.70   13.08    1.059   28.40  20.08  31.30  186.92    2.323    6.04
  75.00 150.66   11.53    0.994   30.23  18.81  29.34  188.47    2.340    6.03
  76.00 152.62   10.07    0.928   32.33  17.54  27.38  189.93    2.356    6.01
  77.00 154.58    8.70    0.863   34.76  16.27  25.42  191.30    2.371    5.99
  78.00 156.54    7.43    0.797   37.59  15.01  23.46  192.57    2.384    5.98
  79.00 158.50    6.26    0.731   40.95  13.74  21.50  193.74    2.397    5.96
  80.00 160.45    5.18    0.665   44.98  12.49  19.55  194.82    2.409    5.95
